Folder: ECEC-Model

Note: README.md
# ECEC-Model
This script was written to analyze .mpt output files of cyclic voltammograms collected in EC-LabÂ® (BioLogic). Please read the comments at the beginning of the script for instructions and further context

File: CVA-0p1M-KBr-nonCat-CoIII-II.mpt
EC-Lab ASCII FILE
Nb header lines : 71

Cyclic Voltammetry Advanced

Run on channel : 2 (SN 53091)
User :
CE vs. WE compliance from -10 V to 10 V
Electrode connection : standard
Potential control : Ewe
Ewe ctrl range : min = -2.50 V, max = 2.50 V
Safety Limits :
	Do not start on E overload
Acquisition started on : 02/12/2024 14:15:34.985
Technique started on : 02/12/2024 14:15:42.272
Loaded Setting File :  NONE
Saved on :
	File : 07a_CVA_50mVps_3x_3mmGC_Ar-purged_02_CVA_C02.mpr
	Directory : C:\Users\anita\Documents\EC-Lab\Data\DMM\2024\CoDIM ligand kinetics exploration\240212 2mM CoDIMBr2 0.1 M KBr, DCV and ACV\
	Host : 10.16.98.111
Device : VSP (SN 1989)
Address : USB
EC-Lab for windows v11.43 (software)
Internet server v11.40 (firmware)
Command interpretor v11.40 (firmware)
Electrode material :
Initial state :
Electrolyte :
Comments :
Electrode surface area : 0.001 cm²
Characteristic mass : 0.001 g
Equivalent Weight : 0.000 g/eq.
Density : 0.000 g/cm3
Volume (V) : 0.001 cm³
Record Ece
Text export
   Mode : Standard
   Time format : Elapsed
Cycle Definition : Charge/Discharge alternance
Ei (V)              0.000
vs.                 Eoc
ti (h:m:s)          0:00:5.0000
dti (s)             0.0000
dE/dt               50.000
dE/dt unit          mV/s
E1 (V)              -0.400
vs.                 Ref
t1 (h:m:s)          0:00:0.0000
dt1 (s)             0.0500
Step percent        50
N                   10
E range min (V)     -2.500
E range max (V)     2.500
I Range             Auto
I Range min         Unset
I Range max         Unset
I Range init        Unset
Bandwidth           5
E2 (V)              0.600
vs.                 Ref
t2 (h:m:s)          0:00:0.0000
dt2 (s)             0.0500
nc cycles           2
nr                  1
Reverse Scan        1
Ef (V)              0.000
vs.                 Eoc
tf (h:m:s)          0:00:0.0000
dtf (s)             0.1000

mode	ox/red	error	control changes	Ns changes	counter inc.	time/s	control/V	Ewe/V	<I>/mA	cycle number	(Q-Qo)/C	I Range	<Ece>/V	Rcmp/Ohm	P/W	Ewe-Ece/V
2	1	0	0	0	0	7.2874	0.452272	0.452028	1.29178e-06	1	0.0000000E+000	14	0.44292	117.476	5.83921e-10	0.00910783
2	0	0	1	0	0	8.5588	0.388702	0.388423	-0.00012588	1	-1.1322e-07	14	0.442965	117.476	-4.88948e-08	-0.0545421
2	0	0	0	0	0	9.839	0.324692	0.324405	-0.00038888	1	-3.75039e-07	14	0.443113	117.476	-1.26154e-07	-0.118707
2	0	0	0	0	0	11.119	0.260692	0.260418	-0.00278611	1	-1.90451e-06	14	0.444543	117.476	-7.25552e-07	-0.184124
2	0	0	0	0	0	12.429	0.195192	0.194871	-0.0123821	1	-1.13521e-05	13	0.450888	117.476	-2.41291e-06	-0.256017
2	0	0	1	0	0	13.7113	0.131079	0.130827	-0.0134687	1	-2.94294e-05	13	0.453879	117.476	-1.76208e-06	-0.323052
2	0	0	1	0	0	14.9988	0.0667025	0.0664067	-0.0104618	1	-4.46937e-05	13	0.453454	117.476	-6.94732e-07	-0.387047
2	0	0	0	0	0	16.283	0.00249249	0.0021495	-0.00892544	1	-5.71031e-05	13	0.45331	117.476	-1.91852e-08	-0.451161
2	0	0	1	0	0	17.5659	-0.0616514	-0.0619962	-0.00789349	1	-6.79133e-05	13	0.453326	117.476	4.89366e-07	-0.515322
2	0	0	0	0	0	18.8482	-0.125768	-0.126086	-0.00712238	1	-7.75769e-05	13	0.453382	117.476	8.98033e-07	-0.579468
2	0	0	1	0	0	20.1301	-0.189861	-0.190191	-0.00652245	1	-8.63632e-05	13	0.453469	117.476	1.24051e-06	-0.64366
2	0	0	0	0	0	21.4118	-0.253948	-0.25425	-0.00606326	1	-9.44745e-05	13	0.453595	117.476	1.54159e-06	-0.707846
2	0	0	0	0	0	22.693	-0.318008	-0.318293	-0.0057221	1	-0.000102071	13	0.453776	117.476	1.8213e-06	-0.772069
2	0	0	1	0	0	23.974	-0.382058	-0.382331	-0.00547152	1	-0.000109292	13	0.453999	117.476	2.09193e-06	-0.83633
2	0	0	1	0	0	25.224	-0.355458	-0.355735	-0.00487343	1	-0.000115738	13	0.453946	117.476	1.73365e-06	-0.80968
2	0	0	1	0	0	26.534	-0.289958	-0.290249	-0.00444719	1	-0.000121805	14	0.453925	117.476	1.29079e-06	-0.744174
2	0	0	1	0	0	27.814	-0.225958	-0.22621	-0.00415787	1	-0.000127315	14	0.45399	117.476	9.40555e-07	-0.6802
2	0	0	1	0	0	29.094	-0.161958	-0.162232	-0.00389542	1	-0.000132475	14	0.454042	117.476	6.31963e-07	-0.616274
2	0	0	1	0	0	30.374	-0.0979577	-0.0982666	-0.00362926	1	-0.000137299	14	0.454094	117.476	3.56636e-07	-0.552361
2	0	0	0	0	0	31.6542	-0.0339477	-0.0342533	-0.00334536	1	-0.000141774	14	0.454119	117.476	1.14589e-07	-0.488372
2	0	0	0	0	0	32.9342	0.0300523	0.0298003	-0.0030098	1	-0.000145858	14	0.454057	117.476	-8.96927e-08	-0.424257
2	0	0	0	0	0	34.2142	0.0940523	0.0938665	-0.00231533	1	-0.000149361	14	0.453785	117.476	-2.17332e-07	-0.359918
2	1	0	0	0	0	35.4942	0.158052	0.157819	0.00121151	1	-0.000150675	14	0.451783	117.476	1.912e-07	-0.293964
2	1	0	1	0	0	36.7744	0.222062	0.221828	0.0100252	1	-0.000143408	14	0.445767	117.476	2.22388e-06	-0.223939
2	1	0	1	0	0	38.1286	0.289768	0.289548	0.00976434	1	-0.000128822	13	0.443779	117.476	2.82725e-06	-0.154231
2	1	0	1	0	0	39.4822	0.357443	0.357214	0.00663015	1	-0.000117842	13	0.444593	117.476	2.36838e-06	-0.0873792
2	1	0	1	0	0	40.8587	0.426267	0.426022	0.00489222	1	-0.000109982	13	0.445113	117.476	2.08419e-06	-0.0190912
2	1	0	1	0	0	42.2861	0.497638	0.497389	0.00389291	1	-0.000103744	14	0.445374	117.476	1.93629e-06	0.0520146
2	1	0	1	0	0	43.6021	0.563438	0.563239	0.00328845	1	-9.90541e-05	14	0.445485	117.476	1.85218e-06	0.117754
2	1	0	1	0	1	44.8848	0.572412	0.572169	0.00253907	1	-9.52586e-05	14	0.445737	117.476	1.45278e-06	0.126432
2	1	0	1	0	1	46.1648	0.508412	0.508137	0.00212223	1	-9.2287e-05	14	0.44585	117.476	1.07838e-06	0.0622868
2	1	0	1	0	1	47.4208	0.445612	0.445317	0.00181184	2	-8.98121e-05	14	0.445916	117.476	8.06843e-07	-0.000599414
2	1	0	1	0	1	48.7009	0.381609	0.381301	0.00151387	2	-8.76726e-05	14	0.445998	117.476	5.7724e-07	-0.0646978
2	1	0	0	0	1	49.981	0.317602	0.317292	0.000978138	2	-8.59958e-05	14	0.446244	117.476	3.10356e-07	-0.128952
2	0	0	0	0	1	51.261	0.253602	0.253367	-0.00214195	2	-8.61489e-05	14	0.447997	117.476	-5.427e-07	-0.194629
2	0	0	0	0	1	52.571	0.188102	0.187799	-0.0120211	2	-9.53045e-05	13	0.454644	117.476	-2.25755e-06	-0.266845
2	0	0	1	0	1	53.8537	0.123969	0.123708	-0.0116797	2	-0.000111702	13	0.456687	117.476	-1.44488e-06	-0.332978
2	0	0	1	0	1	55.1407	0.0596186	0.059335	-0.00893456	2	-0.000124814	13	0.456179	117.476	-5.30132e-07	-0.396844
2	0	0	1	0	1	56.4244	-0.00456751	-0.00491419	-0.00758079	2	-0.00013539	13	0.456029	117.476	3.72534e-08	-0.460943
2	0	0	0	0	1	57.707	-0.0686975	-0.0689949	-0.00668239	2	-0.000144567	13	0.456007	117.476	4.61051e-07	-0.525002
2	0	0	0	0	1	58.989	-0.132798	-0.133126	-0.00600315	2	-0.000152738	13	0.456042	117.476	7.99177e-07	-0.589168
2	0	0	1	0	1	60.2708	-0.196888	-0.197193	-0.00548415	2	-0.000160144	13	0.456115	117.476	1.08144e-06	-0.653308
2	0	0	0	0	1	61.5522	-0.260958	-0.261207	-0.00509585	2	-0.00016697	13	0.456222	117.476	1.33107e-06	-0.717429
2	0	0	0	0	1	62.8334	-0.325018	-0.32527	-0.0048182	2	-0.000173369	13	0.456349	117.476	1.56722e-06	-0.78162
2	0	0	1	0	1	64.1143	-0.389062	-0.38934	-0.00462685	2	-0.000179471	13	0.456537	117.476	1.80142e-06	-0.845877
2	0	0	1	0	1	65.394	-0.346968	-0.347197	-0.00401322	2	-0.000184953	14	0.456433	117.476	1.39338e-06	-0.80363
2	0	0	1	0	1	66.674	-0.282968	-0.283208	-0.0037156	2	-0.000189897	14	0.456453	117.476	1.05228e-06	-0.73966
2	0	0	1	0	1	67.954	-0.218968	-0.21925	-0.00347822	2	-0.000194505	14	0.456512	117.476	7.62602e-07	-0.675763
2	0	0	1	0	1	69.234	-0.154968	-0.155292	-0.00326232	2	-0.000198826	14	0.456543	117.476	5.06613e-07	-0.611835
[...]
2	1	0	0	0	0	84.9856	0.567382	0.56711	0.00289125	2	-0.000153274	14	0.447897	117.476	1.63966e-06	0.119214
2	1	0	0	0	0	86.2656	0.503382	0.503117	0.00246475	2	-0.000149856	14	0.448014	117.476	1.24006e-06	0.0551028
2	1	0	0	0	0	87.5216	0.440582	0.440312	0.00213319	3	-0.000146964	14	0.448071	117.476	9.39269e-07	-0.00775874
2	1	0	0	0	0	88.8016	0.376582	0.376314	0.00181346	3	-0.000144428	14	0.44815	117.476	6.82431e-07	-0.0718367
2	1	0	1	0	0	90.0818	0.312572	0.312321	0.00118179	3	-0.000142416	14	0.448423	117.476	3.69098e-07	-0.136102
2	0	0	1	0	0	91.3618	0.248572	0.248315	-0.00248385	3	-0.000142571	14	0.450531	117.476	-6.16777e-07	-0.202216
2	0	0	1	0	0	92.6718	0.183072	0.182836	-0.0123122	3	-0.000152491	13	0.457386	117.476	-2.25111e-06	-0.27455
2	0	0	0	0	0	93.9552	0.118902	0.118656	-0.0111608	3	-0.000168569	13	0.458848	117.476	-1.3243e-06	-0.340192
2	0	0	0	0	0	95.242	0.0545625	0.0543264	-0.00852653	3	-0.000181081	13	0.458329	117.476	-4.63216e-07	-0.404003
2	0	0	1	0	0	96.5255	-0.00961138	-0.00989389	-0.00721982	3	-0.000191169	13	0.458153	117.476	7.14321e-08	-0.468047
2	0	0	0	0	0	97.808	-0.0737375	-0.0740362	-0.00634508	3	-0.000199898	13	0.458109	117.476	4.69765e-07	-0.532145
2	0	0	1	0	0	99.0902	-0.137847	-0.138153	-0.00568596	3	-0.000207649	13	0.458121	117.476	7.8553e-07	-0.596274
2	0	0	1	0	0	100.372	-0.201928	-0.202212	-0.00518798	3	-0.00021466	13	0.45817	117.476	1.04908e-06	-0.660382
2	0	0	1	0	0	101.653	-0.265988	-0.266279	-0.00482197	3	-0.000221119	13	0.45825	117.476	1.28399e-06	-0.72453
2	0	0	1	0	0	102.934	-0.330048	-0.330303	-0.00456021	3	-0.000227179	13	0.458379	117.476	1.50625e-06	-0.788682
2	0	0	1	0	0	104.245	-0.395588	-0.395871	-0.00443805	3	-0.000233096	14	0.458573	117.476	1.75689e-06	-0.854443
2	0	0	1	0	0	105.504	-0.341488	-0.341765	-0.00377925	3	-0.000238138	14	0.458422	117.476	1.29161e-06	-0.800187
2	0	0	1	0	0	106.784	-0.277488	-0.277751	-0.00350789	3	-0.000242801	14	0.458439	117.476	9.74322e-07	-0.73619
2	0	0	1	0	0	108.064	-0.213488	-0.213743	-0.00328926	3	-0.000247156	14	0.458479	117.476	7.03057e-07	-0.672222
2	0	0	1	0	0	109.344	-0.149488	-0.149745	-0.00308979	3	-0.000251245	14	0.458536	117.476	4.6268e-07	-0.608281
2	0	0	1	0	0	110.624	-0.0854877	-0.0857943	-0.00288078	3	-0.000255076	14	0.45856	117.476	2.47154e-07	-0.544354
2	0	0	1	0	0	111.904	-0.0214877	-0.0217482	-0.00264607	3	-0.000258624	14	0.458531	117.476	5.75472e-08	-0.480279
2	0	0	1	0	0	113.184	0.0425123	0.0422927	-0.0023413	3	-0.000261838	14	0.458449	117.476	-9.90197e-08	-0.416157
2	0	0	1	0	0	114.464	0.106512	0.106281	-0.00148459	3	-0.00026443	14	0.458045	117.476	-1.57784e-07	-0.351763
2	1	0	1	0	0	115.744	0.170512	0.170267	0.00326512	3	-0.000264059	14	0.455213	117.476	5.55943e-07	-0.284946
2	1	0	1	0	0	117.055	0.236092	0.235897	0.0116445	3	-0.000253534	13	0.448891	117.476	2.74689e-06	-0.212994
2	1	0	1	0	0	118.388	0.302738	0.302512	0.00975778	3	-0.00023853	13	0.448012	117.476	2.95185e-06	-0.1455
2	1	0	1	0	0	119.743	0.37049	0.370225	0.00685045	3	-0.000227419	13	0.448824	117.476	2.53621e-06	-0.0785994
2	1	0	1	0	0	121.128	0.439737	0.439508	0.00525818	3	-0.000219084	13	0.44929	117.476	2.31101e-06	-0.00978288
2	1	0	1	0	0	122.536	0.510108	0.509918	0.00433101	3	-0.00021236	14	0.449504	117.476	2.20846e-06	0.0604139
2	1	0	1	0	0	123.856	0.576117	0.575908	0.00374747	3	-0.000207064	14	0.449578	117.476	2.1582e-06	0.12633
2	1	0	0	0	1	125.106	0.561382	0.561113	0.00296339	3	-0.000202877	14	0.449829	117.476	1.66279e-06	0.111283
2	1	0	0	0	1	126.386	0.497382	0.497127	0.0025482	3	-0.000199355	14	0.449912	117.476	1.26678e-06	0.0472146
2	1	0	1	0	1	127.288	0.452232	0.451841	0.00226521	3	-0.000197159	14	0.449897	117.476	1.02351e-06	0.00194362

File: CVA-0p1M-KBr.mpt
EC-Lab ASCII FILE
Nb header lines : 71

Cyclic Voltammetry Advanced

Run on channel : 2 (SN 53091)
User :
CE vs. WE compliance from -10 V to 10 V
Electrode connection : standard
Potential control : Ewe
Ewe ctrl range : min = -1.50 V, max = 1.50 V
Safety Limits :
	Do not start on E overload
Acquisition started on : 06/03/2024 19:37:21.883
Technique started on : 06/03/2024 19:37:26.934
Loaded Setting File :  C:\EC Lab Data(Uran)-- Hard drive\240603 KBr Titration (Cat) Replication\03b-CVA-30mM-KBr-pH4p4-Rep1.mps
Saved on :
	File : 04b-CVA-0p1M-KBr-pH5p0-Rep1_02_CVA_C02.mpr
	Directory : C:\EC Lab Data(Uran)-- Hard drive\240603 KBr Titration (Cat) Replication\
	Host : 10.16.90.189
Device : VSP (SN 1989)
Address : USB
EC-Lab for windows v11.52 (software)
Internet server v11.52 (firmware)
Command interpretor v11.50 (firmware)
Electrode material :
Initial state :
Electrolyte :
Comments :
Electrode surface area : 0.001 cm²
Characteristic mass : 0.001 g
Equivalent Weight : 0.000 g/eq.
Density : 0.000 g/cm3
Volume (V) : 0.001 cm³
Record Ece
Text export
   Mode : Standard
   Time format : Elapsed
Cycle Definition : Charge/Discharge alternance
Ei (V)              0.000
vs.                 Eoc
ti (h:m:s)          0:00:5.0000
dti (s)             0.0000
dE/dt               1.000
dE/dt unit          V/s
E1 (V)              -1.200
vs.                 Ref
t1 (h:m:s)          0:00:0.0000
dt1 (s)             0.0500
Step percent        50
N                   10
E range min (V)     -1.500
E range max (V)     1.500
I Range             1 mA
I Range min         Unset
I Range max         Unset
I Range init        Unset
Bandwidth           5
E2 (V)              0.600
vs.                 Ref
t2 (h:m:s)          0:00:0.0000
dt2 (s)             0.0500
nc cycles           2
nr                  1
Reverse Scan        1
Ef (V)              0.000
vs.                 Eoc
tf (h:m:s)          0:00:0.0000
dtf (s)             0.1000

mode	ox/red	error	control changes	Ns changes	counter inc.	time/s	control/V	Ewe/V	<I>/mA	cycle number	(Q-Qo)/C	I Range	Ns	step time/s	<Ece>/V	Rcmp/Ohm	P/W	Ewe-Ece/V
2	1	0	1	0	0	5.051	0.428045	0.427763	3.37152e-05	1	0.0000000E+000	12	0	5.051	0.333357	64.175	1.44221e-08	0.0944056
2	0	0	1	0	0	5.1741	0.304995	0.30471	-0.00210278	1	-1.60448e-07	12	0	5.1741	0.334091	64.175	-6.40737e-07	-0.0293809
2	0	0	1	0	0	5.2981	0.181004	0.180651	-0.0231147	1	-1.31558e-06	12	0	5.2981	0.33943	64.175	-4.17568e-06	-0.158779
2	0	0	1	0	0	5.4221	0.0570006	0.0567346	-0.0261985	1	-4.80779e-06	12	0	5.4221	0.341599	64.175	-1.48636e-06	-0.284865
2	0	0	1	0	0	5.5461	-0.067002	-0.0673064	-0.0239059	1	-7.82435e-06	12	0	5.5461	0.341502	64.175	1.60902e-06	-0.408809
2	0	0	1	0	0	5.6701	-0.191009	-0.191322	-0.0266683	1	-1.09471e-05	12	0	5.6701	0.342642	64.175	5.10225e-06	-0.533964
2	0	0	1	0	0	5.7941	-0.314994	-0.31532	-0.027893	1	-1.43557e-05	12	0	5.7941	0.343482	64.175	8.79524e-06	-0.658802
2	0	0	1	0	0	5.9181	-0.438998	-0.439263	-0.0277718	1	-1.78007e-05	12	0	5.9181	0.343854	64.175	1.21991e-05	-0.783116
2	0	0	1	0	0	6.0421	-0.562999	-0.563284	-0.0291844	1	-2.13048e-05	12	0	6.0421	0.344562	64.175	1.64391e-05	-0.907846
2	0	0	1	0	0	6.1661	-0.687004	-0.687313	-0.0327557	1	-2.51321e-05	12	0	6.1661	0.345939	64.175	2.25134e-05	-1.03325
2	0	0	1	0	0	6.2901	-0.81101	-0.811278	-0.0372446	1	-2.9456e-05	12	0	6.2901	0.347599	64.175	3.02157e-05	-1.15888
2	0	0	1	0	0	6.4141	-0.935006	-0.935277	-0.0568856	1	-3.47912e-05	12	0	6.4141	0.353037	64.175	5.32037e-05	-1.28831
2	0	0	1	0	0	6.5381	-1.05901	-1.05933	-0.205682	1	-5.05311e-05	12	0	6.5381	0.39389	64.175	0.000217886	-1.45322
2	0	0	1	0	0	6.6621	-1.183	-1.1833	-0.237154	1	-7.8801e-05	12	0	6.6621	0.410168	64.175	0.000280626	-1.59347
2	0	0	1	0	0	6.7809	-1.09866	-1.09895	-0.204351	1	-0.000104823	12	0	6.7809	0.406835	64.175	0.000224571	-1.50579
2	0	0	1	0	0	6.9049	-0.974668	-0.975021	-0.0442846	1	-0.000122474	12	0	6.9049	0.368401	64.175	4.31784e-05	-1.34342
2	0	0	1	0	0	7.0289	-0.850665	-0.851012	-0.00100448	1	-0.000123765	12	0	7.0289	0.351012	64.175	8.54823e-07	-1.20202
2	0	0	1	0	0	7.1529	-0.726672	-0.726968	0.000527268	1	-0.000123803	12	0	0.028	0.347593	64.175	-3.83307e-07	-1.07456
2	1	0	1	0	0	7.2769	-0.602672	-0.602964	0.00281985	1	-0.000123599	12	0	0.152	0.345265	64.175	-1.70027e-06	-0.948229
2	1	0	1	0	0	7.4009	-0.478669	-0.479018	0.00474386	1	-0.000123125	12	0	0.276	0.343515	64.175	-2.27239e-06	-0.822533
2	1	0	1	0	0	7.5249	-0.354667	-0.354981	0.00620914	1	-0.000122447	12	0	0.4	0.342141	64.175	-2.20413e-06	-0.697123
2	1	0	1	0	0	7.6489	-0.230657	-0.230982	0.00749092	1	-0.000121596	12	0	0.524	0.3411	64.175	-1.73027e-06	-0.572082
2	1	0	1	0	0	7.7729	-0.106673	-0.107021	0.00853566	1	-0.0001206	12	0	0.648	0.340237	64.175	-9.13492e-07	-0.447257
2	1	0	1	0	0	7.8969	0.017324	0.016989	0.0102995	1	-0.000119454	12	0	0.772	0.339248	64.175	1.74978e-07	-0.322259
2	1	0	1	0	0	8.0209	0.141334	0.141042	0.017733	1	-0.000117824	12	0	0.896	0.336799	64.175	2.50111e-06	-0.195756
2	1	0	1	0	0	8.1449	0.265333	0.265009	0.0305997	1	-0.000114756	12	0	1.02	0.332537	64.175	8.10919e-06	-0.0675283
2	1	0	1	0	0	8.2689	0.389328	0.389019	0.0309603	1	-0.000110829	12	0	1.144	0.331333	64.175	1.20441e-05	0.0576858
2	1	0	1	0	0	8.3929	0.513332	0.513	0.0268851	1	-0.000107251	12	0	1.268	0.331624	64.175	1.37921e-05	0.181375
2	1	0	1	0	1	8.5113	0.568586	0.568331	0.015068	1	-0.000104425	12	0	1.3864	0.334124	64.175	8.56361e-06	0.234208
2	1	0	1	0	1	8.6353	0.444594	0.444304	0.00820438	1	-0.000103062	12	0	1.5104	0.336154	64.175	3.64524e-06	0.10815
2	1	0	1	0	1	8.7569	0.322989	0.322688	0.00449443	2	-0.000102297	12	0	1.632	0.337329	64.175	1.4503e-06	-0.0146411
2	1	0	1	0	1	8.8809	0.198996	0.198727	-0.000329909	2	-0.000101993	12	0	0.002	0.338669	64.175	-6.55617e-08	-0.139942
2	0	0	1	0	1	9.0049	0.074995	0.074666	-0.00724902	2	-0.000102486	12	0	0.126	0.34083	64.175	-5.41255e-07	-0.266164
2	0	0	1	0	1	9.1289	-0.04901	-0.0493214	-0.0126567	2	-0.000103728	12	0	0.25	0.342695	64.175	6.24247e-07	-0.392016
2	0	0	1	0	1	9.2529	-0.172998	-0.173286	-0.0154835	2	-0.000105501	12	0	0.374	0.343828	64.175	2.68307e-06	-0.517114
2	0	0	1	0	1	9.3769	-0.297007	-0.297334	-0.0165959	2	-0.00010749	12	0	0.498	0.344547	64.175	4.93454e-06	-0.641881
2	0	0	1	0	1	9.5009	-0.421001	-0.421296	-0.0183601	2	-0.00010964	12	0	0.622	0.345311	64.175	7.73505e-06	-0.766606
2	0	0	1	0	1	9.6249	-0.545006	-0.545342	-0.0224569	2	-0.000112136	12	0	0.746	0.3467	64.175	1.22467e-05	-0.892042
2	0	0	1	0	1	9.7489	-0.669003	-0.669316	-0.0291402	2	-0.000115321	12	0	0.87	0.348897	64.175	1.9504e-05	-1.01821
2	0	0	1	0	1	9.8729	-0.793001	-0.793294	-0.0352079	2	-0.000119321	12	0	0.994	0.35117	64.175	2.79303e-05	-1.14446
2	0	0	1	0	1	9.9969	-0.917003	-0.917365	-0.0480735	2	-0.000124214	12	0	1.118	0.355036	64.175	4.4101e-05	-1.2724
2	0	0	1	0	1	10.1209	-1.04099	-1.0413	-0.191231	2	-0.000137404	12	0	1.242	0.393357	64.175	0.00019913	-1.43466
2	0	0	1	0	1	10.2449	-1.165	-1.16533	-0.233768	2	-0.000164979	12	0	1.366	0.412816	64.175	0.000272417	-1.57815
2	0	0	1	0	1	10.3637	-1.11666	-1.11695	-0.206788	2	-0.00019125	12	0	1.4848	0.411254	64.175	0.000230971	-1.5282
2	0	0	1	0	1	10.4877	-0.992668	-0.993015	-0.0724358	2	-0.000211386	12	0	1.6088	0.380447	64.175	7.19299e-05	-1.37346
2	0	0	1	0	1	10.6117	-0.868666	-0.86899	-0.000202101	2	-0.000213591	12	0	1.7328	0.355991	64.175	1.75624e-07	-1.22498
[...]
2	1	0	1	0	0	12.0941	0.586597	0.58632	0.0208068	2	-0.000192075	12	0	1.4744	0.336642	64.175	1.21994e-05	0.249678
2	1	0	1	0	0	12.2181	0.462598	0.462333	0.00997813	2	-0.000190344	12	0	1.5984	0.339681	64.175	4.61322e-06	0.122652
2	1	0	1	0	0	12.3397	0.340995	0.34077	0.00533835	3	-0.000189428	12	0	1.72	0.341115	64.175	1.81915e-06	-0.00034523
2	1	0	1	0	0	12.4637	0.216988	0.216692	0.00130154	3	-0.000189007	12	0	1.844	0.342386	64.175	2.82033e-07	-0.125694
2	0	0	1	0	0	12.5877	0.0930021	0.0927098	-0.00276338	3	-0.000189119	12	0	0.088	0.343691	64.175	-2.56192e-07	-0.250981
2	0	0	1	0	0	12.7117	-0.0310078	-0.0313529	-0.00548199	3	-0.000189626	12	0	0.212	0.34457	64.175	1.71876e-07	-0.375923
2	0	0	1	0	0	12.8357	-0.154997	-0.155336	-0.00917568	3	-0.000190519	12	0	0.336	0.345851	64.175	1.42531e-06	-0.501187
2	0	0	1	0	0	12.9597	-0.279006	-0.279342	-0.0142498	3	-0.000191964	12	0	0.46	0.347486	64.175	3.98057e-06	-0.626828
2	0	0	1	0	0	13.0837	-0.403006	-0.403293	-0.0164264	3	-0.000193912	12	0	0.584	0.348506	64.175	6.62466e-06	-0.751799
2	0	0	1	0	0	13.2077	-0.527008	-0.527293	-0.0195033	3	-0.000196081	12	0	0.708	0.349603	64.175	1.0284e-05	-0.876895
2	0	0	1	0	0	13.3317	-0.651008	-0.651289	-0.0272291	3	-0.000198947	12	0	0.832	0.352057	64.175	1.7734e-05	-1.00335
2	0	0	1	0	0	13.4557	-0.775006	-0.775278	-0.0351901	3	-0.000202827	12	0	0.956	0.354787	64.175	2.72821e-05	-1.13007
2	0	0	1	0	0	13.5797	-0.899003	-0.899332	-0.0458593	3	-0.000207719	12	0	1.08	0.358328	64.175	4.12427e-05	-1.25766
2	0	0	1	0	0	13.7037	-1.023	-1.02333	-0.170729	3	-0.000218819	12	0	1.204	0.391157	64.175	0.000174713	-1.41449
2	0	0	1	0	0	13.8277	-1.147	-1.1473	-0.23239	3	-0.000245605	12	0	1.328	0.415457	64.175	0.000266623	-1.56276
2	0	0	1	0	0	13.9465	-1.13467	-1.135	-0.208285	3	-0.000272178	12	0	1.4468	0.415115	64.175	0.000236403	-1.55011
2	0	0	1	0	0	14.0705	-1.01067	-1.01098	-0.106226	3	-0.000294268	12	0	1.5708	0.39293	64.175	0.000107393	-1.40391
2	0	0	1	0	0	14.1945	-0.88667	-0.887034	-0.0008597	3	-0.000298036	12	0	1.6948	0.360911	64.175	7.62584e-07	-1.24795
2	1	0	1	0	0	14.3185	-0.762667	-0.76296	0.00219548	3	-0.000297901	12	0	0.106	0.35623	64.175	-1.67507e-06	-1.11919
2	1	0	1	0	0	14.4425	-0.638658	-0.638995	0.00433763	3	-0.0002975	12	0	0.23	0.35364	64.175	-2.77172e-06	-0.992636
2	1	0	1	0	0	14.5665	-0.514668	-0.514997	0.00609724	3	-0.000296849	12	0	0.354	0.351798	64.175	-3.14006e-06	-0.866795
2	1	0	1	0	0	14.6905	-0.39067	-0.390955	0.0076258	3	-0.000296002	12	0	0.478	0.350304	64.175	-2.98135e-06	-0.741259
2	1	0	1	0	0	14.8145	-0.266672	-0.266971	0.00940556	3	-0.000294949	12	0	0.602	0.349057	64.175	-2.51101e-06	-0.616028
2	1	0	1	0	0	14.9385	-0.142668	-0.142993	0.0105958	3	-0.000293703	12	0	0.726	0.347979	64.175	-1.51512e-06	-0.490972
2	1	0	1	0	0	15.0625	-0.0186664	-0.0190187	0.0121134	3	-0.000292312	12	0	0.85	0.347049	64.175	-2.3038e-07	-0.366068
2	1	0	1	0	0	15.1865	0.105332	0.105062	0.0171905	3	-0.000290562	12	0	0.974	0.345113	64.175	1.80606e-06	-0.240051
2	1	0	1	0	0	15.3105	0.229342	0.229037	0.0281606	3	-0.000287756	12	0	1.098	0.341463	64.175	6.4498e-06	-0.112426
2	1	0	1	0	0	15.4345	0.353328	0.353061	0.0338758	3	-0.000283834	12	0	1.222	0.338945	64.175	1.19603e-05	0.0141162
2	1	0	1	0	0	15.5585	0.47734	0.477057	0.033345	3	-0.000279632	12	0	1.346	0.338122	64.175	1.59074e-05	0.138935
2	1	0	1	0	0	15.681	0.599864	0.599511	0.0325849	3	-0.000275577	12	0	1.4685	0.337497	64.175	1.9535e-05	0.262013
2	1	0	1	0	1	15.8009	0.480603	0.480302	0.0117091	3	-0.00027349	12	0	1.5884	0.342866	64.175	5.62391e-06	0.137436
2	1	0	0	0	1	15.8534	0.428054	0.427794	0.00991043	3	-0.000272947	12	0	1.6409	0.342773	64.175	4.23962e-06	0.0850208